Folder: fp2/roentgen/resources

Note: roentgen/resources/al_34_10_02_6_.txt
X-ray (ID 01) / Crystal angle ?_c	X-ray (ID 01) / Impulse Imp
?_c/°	Imp/# / s

15,0	91
15,2	98
15,4	95
15,6	97
15,8	100
16,0	95
16,2	93
16,4	95
16,6	94
16,8	91
17,0	101
17,2	108
17,4	109
17,6	103
17,8	91
18,0	86
18,2	86
18,4	91
18,6	95
18,8	98
19,0	114
19,2	154
19,4	172
19,6	147
19,8	97
20,0	90
20,2	91
20,4	86
20,6	82
20,8	72
21,0	69
21,2	66
21,4	71
21,6	74
21,8	72
22,0	85
22,2	95
22,4	112
22,6	118
22,8	94
23,0	75
23,2	61
23,4	55
23,6	65
23,8	59
24,0	57
24,2	61
24,4	58
24,6	53
24,8	59
25,0	56
25,2	58
25,4	56
25,6	55
25,8	58
26,0	47
26,2	52
26,4	51
26,6	53
26,8	51
27,0	50
27,2	50
27,4	48
27,6	52
27,8	50
28,0	48
28,2	49
28,4	47
28,6	44
28,8	52
29,0	50
29,2	55
29,4	49
29,6	47
29,8	43
30,0	42
30,2	42
30,4	45
30,6	43
30,8	42
31,0	47
31,2	40
31,4	41
31,6	42
31,8	44
32,0	49
32,2	49
32,4	49
32,6	57
32,8	73
33,0	63
33,2	49
33,4	38
33,6	34
33,8	40
34,0	39
34,2	36
34,4	38
34,6	40
34,8	44
35,0	47
35,2	41
35,4	35
35,6	37
35,8	36
36,0	37
36,2	36
36,4	35
36,6	37
36,8	35
37,0	37
37,2	29
37,4	34
37,6	33
37,8	32
38,0	32
38,2	32
38,4	35
38,6	38
38,8	46
39,0	55
39,2	56
39,4	66
39,6	52
39,8	38
40,0	31
40,2	29
40,4	35
40,6	33
40,8	36
41,0	34
41,2	37
41,4	37
41,6	37
41,8	34
42,0	32
42,2	28
42,4	28
42,6	28
42,8	27
43,0	29
43,2	27
43,4	27
43,6	28
43,8	26
44,0	30

Note: roentgen/resources/Al_PowderPattern_64700.txt
4.0  0.0
4.2  0.0
4.4  0.0
4.6  0.0
4.8  0.0
5.0  0.0
5.2  0.0
5.4  0.0
5.6  0.0
5.8  0.0
6.0  0.0
6.2  0.0
6.4  0.0
6.6  0.0
6.8  0.0
7.0  0.0
7.2  0.0
7.4  0.0
7.6  0.0
7.8  0.0
8.0  0.0
8.2  0.0
8.4  0.0
8.6  0.0
8.8  0.0
9.0  0.0
9.2  0.0
9.4  0.0
9.6  0.0
9.8  0.0
10.0  0.0
10.2  0.0
10.4  0.0
10.6  0.0
10.8  0.0
11.0  0.0
11.2  0.0
11.4  0.0
11.6  0.0
11.8  0.0
12.0  0.0
12.2  0.0
12.4  0.0
12.6  0.0
12.8  0.0
13.0  0.0
13.2  0.0
13.4  0.0
13.6  0.0
13.8  0.0
14.0  0.0
14.2  0.0
14.4  0.0
14.6  0.0
14.8  0.0
15.0  0.0
15.2  0.0
15.4  0.0
15.6  0.0
15.8  0.0
16.0  0.0
16.2  0.0
16.4  0.0
16.6  0.0
16.8  0.0
17.0  0.0
17.2  0.0
17.4  0.0
17.6  0.0
17.8  0.0
18.0  0.0
18.2  0.0
18.4  0.0
18.6  0.0
18.8  0.0
19.0  0.0
19.2  0.0
19.4  0.0
19.6  0.0
19.8  0.0
20.0  0.0
20.2  0.0
20.4  0.0
20.6  0.0
20.8  0.0
21.0  0.0
21.2  0.0
21.4  0.0
21.6  0.0
21.8  0.0
22.0  0.0
22.2  0.0
22.4  0.0
22.6  0.0
22.8  0.0
23.0  0.0
23.2  0.0
23.4  0.0
23.6  0.0
23.8  0.0
24.0  0.0
24.2  0.0
24.4  0.0
24.6  0.0
24.8  0.0
25.0  0.0
25.2  0.0
25.4  0.0
25.6  0.0
25.8  0.0
26.0  0.0
26.2  0.0
26.4  0.0
26.6  0.0
26.8  0.0
27.0  0.0
27.2  0.0
27.4  0.0
27.6  0.0
27.8  0.0
28.0  0.0
28.2  0.0
28.4  0.0
28.6  0.0
28.8  0.0
29.0  0.0
29.2  0.0
29.4  0.0
29.6  0.0
29.8  0.0
30.0  0.0
30.2  0.0
30.4  0.0
30.6  0.0
30.8  0.0
31.0  0.0
31.2  0.0
31.4  0.0
31.6  0.0
31.8  0.0
32.0  0.0
32.2  0.0
32.4  0.0
32.6  0.0
32.8  0.0
33.0  0.0
33.2  0.0
33.4  0.0
33.6  0.0
33.8  0.0
34.0  0.0
34.2  0.0
34.4  0.0
34.6  0.0
34.8  0.0
35.0  0.0
35.2  0.0
35.4  0.0
35.6  0.0
35.8  0.0
36.0  0.0
36.2  0.0
36.4  0.0
36.6  0.0
36.8  0.0
37.0  0.0
37.2  0.0
37.4  0.0
37.6  0.0
37.8  0.0
38.0  32.0
38.2  179.0
38.4  695.0
38.6  1883.0
38.8  3565.0
39.0  4713.0
39.2  4353.0
39.4  2808.0
39.6  1265.0
39.8  398.0
40.0  88.0
40.2  13.0
40.4  0.0
40.6  0.0
40.8  0.0
41.0  0.0
41.2  0.0
41.4  0.0
41.6  0.0
41.8  0.0
42.0  0.0
42.2  0.0
42.4  0.0
42.6  0.0
42.8  0.0
43.0  0.0
43.2  0.0
43.4  0.0
43.6  0.0
43.8  0.0
44.0  0.0
44.2  8.0
44.4  51.0
44.6  226.0
44.8  689.0
45.0  1459.0
45.2  2142.0
45.4  2182.0
45.6  1541.0
45.8  755.0
46.0  257.0
46.2  60.0
46.4  10.0
46.6  0.0
46.8  0.0
47.0  0.0
47.2  0.0
47.4  0.0
47.6  0.0
47.8  0.0
48.0  0.0
48.2  0.0
48.4  0.0
48.6  0.0
48.8  0.0
49.0  0.0
49.2  0.0
49.4  0.0
49.6  0.0
49.8  0.0
50.0  0.0
50.2  0.0
50.4  0.0
50.6  0.0
50.8  0.0
51.0  0.0
51.2  0.0
51.4  0.0
51.6  0.0
51.8  0.0
52.0  0.0
52.2  0.0
52.4  0.0
52.6  0.0
52.8  0.0
53.0  0.0
53.2  0.0
53.4  0.0
53.6  0.0
53.8  0.0
54.0  0.0
54.2  0.0
54.4  0.0
54.6  0.0
54.8  0.0
55.0  0.0
55.2  0.0
55.4  0.0
55.6  0.0
55.8  0.0
56.0  0.0
56.2  0.0
56.4  0.0
56.6  0.0
56.8  0.0
57.0  0.0
57.2  0.0
57.4  0.0
57.6  0.0
57.8  0.0
58.0  0.0

Note: roentgen/resources/cd_34_10_02_6_1.txt
X-ray (ID 01) / Crystal angle ?_c	X-ray (ID 01) / Impulse Imp
?_c/°	Imp/# / s

14,0	75
14,2	79
14,4	77
14,6	90
14,8	78
15,0	77
15,2	76
15,4	74
15,6	83
15,8	82
16,0	108
16,2	106
16,4	95
16,6	78
16,8	78
17,0	84
17,2	87
17,4	90
17,6	101
17,8	89
18,0	82
18,2	69
18,4	81
18,6	75
18,8	79
19,0	93
19,2	106
19,4	122
19,6	125
19,8	96
20,0	75
20,2	69
20,4	75
20,6	82
20,8	74
21,0	73
21,2	68
21,4	75
21,6	77
21,8	81
22,0	70
22,2	80
22,4	75
22,6	69
22,8	73
23,0	71
23,2	80
23,4	74
23,6	75
23,8	71
24,0	80
24,2	85
24,4	90
24,6	76
24,8	76
25,0	73
25,2	75
25,4	71
25,6	76
25,8	68
26,0	69
26,2	76
26,4	75
26,6	74
26,8	66
27,0	64
27,2	72
27,4	79
27,6	74
27,8	79
28,0	73
28,2	82
28,4	72
28,6	70
28,8	76
29,0	71
29,2	68
29,4	66
29,6	74
29,8	72
30,0	71
30,2	75
30,4	79
30,6	86
30,8	85
31,0	90
31,2	92
31,4	81
31,6	81
31,8	76
32,0	71
32,2	74
32,4	71
32,6	66
32,8	73
33,0	65
33,2	67
33,4	76
33,6	71
33,8	70
34,0	72
34,2	75
34,4	67
34,6	73
34,8	68
35,0	66
35,2	67
35,4	67
35,6	73
35,8	77
36,0	80
36,2	76
36,4	80
36,6	74
36,8	69
37,0	64

Note: roentgen/resources/cd_34_10_02_6_2.txt
45,0	64
45,2	68
45,4	68
45,6	70
45,8	66
46,0	68
46,2	69
46,4	72
46,6	72
46,8	72
47,0	67
47,2	74
47,4	63
47,6	70
47,8	69
48,0	71
48,2	72
48,4	72
48,6	74
48,8	75
49,0	80
49,2	73
49,4	73
49,6	71
49,8	69
50,0	73
50,2	70

Note: roentgen/resources/cd_34_10_02_10_3ni.txt
X-ray (ID 01) / Crystal angle ?_c	X-ray (ID 01) / Impulse Imp
?_c/°	Imp/# / s

14,0	35
14,1	36
14,2	37
14,3	36
14,4	36
14,5	36
14,6	33
14,7	36
14,8	36
14,9	36
15,0	35
15,1	32
15,2	40
15,3	37
15,4	38
15,5	35
15,6	37
15,7	37
15,8	41
15,9	43
16,0	49
16,1	48
16,2	54
16,3	45
16,4	43
16,5	37
16,6	38
16,7	34
16,8	36
16,9	35
17,0	39
17,1	34
17,2	37
17,3	38
17,4	39
17,5	41
17,6	46
17,7	41
17,8	41
17,9	37
18,0	33
18,1	37
18,2	37
18,3	36
18,4	34
18,5	35
18,6	35
18,7	35
18,8	33
18,9	36
19,0	41
19,1	48
19,2	52
19,3	55
19,4	58
19,5	64
19,6	64
19,7	56
19,8	46
19,9	37
20,0	36

Note: roentgen/resources/in_34_10_02_12_1.txt
X-ray (ID 01) / Crystal angle ?_c	X-ray (ID 01) / Impulse Imp
?_c/°	Imp/# / s

15,0	89
15,2	97
15,4	121
15,6	124
15,8	104
16,0	99
16,2	101
16,4	113
16,6	112
16,8	126
17,0	274
17,2	297
17,4	126
17,6	119
17,8	116
18,0	118
18,2	119
18,4	121
18,6	119
18,8	123
19,0	125
19,2	124
19,4	119
19,6	123
19,8	123
20,0	121
20,2	119

Note: roentgen/resources/in_34_10_02_12_2.txt
X-ray (ID 01) / Crystal angle ?_c	X-ray (ID 01) / Impulse Imp
?_c/°	Imp/# / s

26,0	101
26,2	104
26,4	105
26,6	96
26,8	98
27,0	92
27,2	85
27,4	90
27,6	99
27,8	162
28,0	119
28,2	84
28,4	79

Note: roentgen/resources/in_34_10_02_12_3.txt
X-ray (ID 01) / Crystal angle ?_c	X-ray (ID 01) / Impulse Imp
?_c/°	Imp/# / s

31,0	73
31,2	69
31,4	81
31,6	72
31,8	65
32,0	72
32,2	73
32,4	66
32,6	65
32,8	61
33,0	63
33,2	64
33,4	65
33,6	62
33,8	64
34,0	84
34,2	82
34,4	65
34,6	62
34,8	64
35,0	80
35,2	91
35,4	77
35,6	64
35,8	61
36,0	61
36,2	58
36,4	62
36,6	59

Note: roentgen/resources/in_34_10_02_12_4.txt
X-ray (ID 01) / Crystal angle ?_c	X-ray (ID 01) / Impulse Imp
?_c/°	Imp/# / s

44,0	63
44,2	62
44,4	62
44,6	63
44,8	63
45,0	62
45,2	68
45,4	63
45,6	65
45,8	65
46,0	63
46,2	64
46,4	66
46,6	65
46,8	61
47,0	62
47,2	66
47,4	68
47,6	65
47,8	65
48,0	66
48,2	73
48,4	71
48,6	67
48,8	68
49,0	66
49,2	67
49,4	73
49,6	67
49,8	68
50,0	66

Note: roentgen/resources/in_34_10_02_12_5.txt
X-ray (ID 01) / Crystal angle ?_c	X-ray (ID 01) / Impulse Imp
?_c/°	Imp/# / s

51,0	65
51,2	66
51,4	64
51,6	67
51,8	71
52,0	71
52,2	68
52,4	65
52,6	70
52,8	68
53,0	66
53,2	67
53,4	71
53,6	73
53,8	70
54,0	70
54,2	68
54,4	75
54,6	72
54,8	74
55,0	73
55,2	68
55,4	70
55,6	74
55,8	64
56,0	72

File: Al_PowderTable_64700.txt
"H	K	L	2THETA	D-VALUE	MULT	INTENSITY"
"1	1	-1	38.51	2.3379	2	1000.0"
"1	-1	1	38.51	2.3379	2	1000.0"
"1	-1	-1	38.51	2.3379	2	1000.0"
"1	1	1	38.51	2.3379	2	1000.0"
"0	2	0	44.76	2.0247	2	625.5"
"2	0	0	44.76	2.0247	2	625.5"
"0	0	2	44.76	2.0247	2	625.5"
"2	-2	0	65.16	1.4317	2	175.7"
"2	0	-2	65.16	1.4317	2	175.7"
"0	2	-2	65.16	1.4317	2	175.7"
"2	2	0	65.16	1.4317	2	175.7"
"2	0	2	65.16	1.4317	2	175.7"
"0	2	2	65.16	1.4317	2	175.7"
"1	-3	1	78.31	1.2209	2	92.8"
"1	1	-3	78.31	1.2209	2	92.8"
"3	-1	-1	78.31	1.2209	2	92.8"
"1	3	-1	78.31	1.2209	2	92.8"
"1	-1	3	78.31	1.2209	2	92.8"
"3	1	-1	78.31	1.2209	2	92.8"
"3	-1	1	78.31	1.2209	2	92.8"
"1	-3	-1	78.31	1.2209	2	92.8"
"1	-1	-3	78.31	1.2209	2	92.8"
"1	3	1	78.31	1.2209	2	92.8"
"3	1	1	78.31	1.2209	2	92.8"
"1	1	3	78.31	1.2209	2	92.8"
"2	-2	2	82.52	1.1690	2	78.3"
"2	-2	-2	82.52	1.1690	2	78.3"
"2	2	-2	82.52	1.1690	2	78.3"
"2	2	2	82.52	1.1690	2	78.3"
"4	0	0	99.19	1.0123	2	48.3"
"0	4	0	99.19	1.0123	2	48.3"
"0	0	4	99.19	1.0123	2	48.3"
"1	-3	3	112.16	0.9290	2	40.8"
"3	3	-1	112.16	0.9290	2	40.8"
"3	-3	1	112.16	0.9290	2	40.8"
"3	1	-3	112.16	0.9290	2	40.8"
"3	-3	-1	112.16	0.9290	2	40.8"
"1	3	-3	112.16	0.9290	2	40.8"
"3	-1	3	112.16	0.9290	2	40.8"
"3	-1	-3	112.16	0.9290	2	40.8"
"1	-3	-3	112.16	0.9290	2	40.8"
"3	1	3	112.16	0.9290	2	40.8"
"1	3	3	112.16	0.9290	2	40.8"
"3	3	1	112.16	0.9290	2	40.8"
"4	2	0	116.72	0.9055	2	40.0"
"2	4	0	116.72	0.9055	2	40.0"
"0	4	2	116.72	0.9055	2	40.0"
"2	0	-4	116.72	0.9055	2	40.0"
"0	2	-4	116.72	0.9055	2	40.0"
"2	0	4	116.72	0.9055	2	40.0"
"4	-2	0	116.72	0.9055	2	40.0"
"2	-4	0	116.72	0.9055	2	40.0"
"4	0	-2	116.72	0.9055	2	40.0"
"0	2	4	116.72	0.9055	2	40.0"
"4	0	2	116.72	0.9055	2	40.0"
"0	4	-2	116.72	0.9055	2	40.0"

File: Cd_PowderTable_98179.txt
"H	K	L	2THETA	D-VALUE	MULT	INTENSITY"
"0	0	2	31.85	2.8095	2	1000.0"
"1	-1	0	34.84	2.5747	2	193.6"
"1	0	0	34.84	2.5747	2	193.6"
"0	1	0	34.84	2.5747	2	193.6"
"1	-1	1	38.46	2.3407	2	433.5"
"1	-1	-1	38.46	2.3407	2	433.5"
"0	1	-1	38.46	2.3407	2	433.5"
"1	0	-1	38.46	2.3407	2	433.5"
"1	0	1	38.46	2.3407	2	433.5"
"0	1	1	38.46	2.3407	2	433.5"
"0	1	-2	47.92	1.8982	2	71.9"
"1	-1	2	47.92	1.8982	2	71.9"
"1	0	-2	47.92	1.8982	2	71.9"
"1	-1	-2	47.92	1.8982	2	71.9"
"0	1	2	47.92	1.8982	2	71.9"
"1	0	2	47.92	1.8982	2	71.9"
"1	-1	3	61.19	1.5146	2	92.6"
"0	1	-3	61.19	1.5146	2	92.6"
"1	0	-3	61.19	1.5146	2	92.6"
"1	-1	-3	61.19	1.5146	2	92.6"
"0	1	3	61.19	1.5146	2	92.6"
"1	0	3	61.19	1.5146	2	92.6"
"2	-1	0	62.48	1.4865	2	114.7"
"1	-2	0	62.48	1.4865	2	114.7"
"1	1	0	62.48	1.4865	2	114.7"
"2	-1	-1	64.88	1.4371	2	0.0"
"1	-2	-1	64.88	1.4371	2	0.0"
"1	-2	1	64.88	1.4371	2	0.0"
"2	-1	1	64.88	1.4371	2	0.0"
"0	0	4	66.57	1.4047	2	91.5"
"2	-1	-2	71.85	1.3139	2	70.0"
"1	-2	2	71.85	1.3139	2	70.0"
"1	1	-2	71.85	1.3139	2	70.0"
"1	-2	-2	71.85	1.3139	2	70.0"
"2	-1	2	71.85	1.3139	2	70.0"
"1	1	2	71.85	1.3139	2	70.0"
"2	-2	0	73.57	1.2873	2	16.1"
"2	0	0	73.57	1.2873	2	16.1"
"0	2	0	73.57	1.2873	2	16.1"
"2	-2	1	75.81	1.2548	2	43.8"
"2	-2	-1	75.81	1.2548	2	43.8"
"2	0	-1	75.81	1.2548	2	43.8"
"2	0	1	75.81	1.2548	2	43.8"
"0	2	-1	75.81	1.2548	2	43.8"
"0	2	1	75.81	1.2548	2	43.8"
"1	-1	4	77.39	1.2331	2	13.6"
"1	0	-4	77.39	1.2331	2	13.6"
"0	1	-4	77.39	1.2331	2	13.6"
"1	-1	-4	77.39	1.2331	2	13.6"
"0	1	4	77.39	1.2331	2	13.6"
"1	0	4	77.39	1.2331	2	13.6"
"2	-2	2	82.40	1.1703	2	11.2"
"2	-2	-2	82.40	1.1703	2	11.2"
"2	0	-2	82.40	1.1703	2	11.2"
"0	2	-2	82.40	1.1703	2	11.2"
"2	0	2	82.40	1.1703	2	11.2"
"0	2	2	82.40	1.1703	2	11.2"
"2	-1	-3	82.92	1.1644	2	0.0"
"1	-2	3	82.92	1.1644	2	0.0"
"1	-2	-3	82.92	1.1644	2	0.0"
"2	-1	3	82.92	1.1644	2	0.0"
"2	0	-3	93.21	1.0609	2	24.4"
"2	-2	3	93.21	1.0609	2	24.4"
"2	-2	-3	93.21	1.0609	2	24.4"
"0	2	-3	93.21	1.0609	2	24.4"
"2	0	3	93.21	1.0609	2	24.4"
"0	2	3	93.21	1.0609	2	24.4"
"1	0	-5	96.92	1.0300	2	22.5"
"0	1	-5	96.92	1.0300	2	22.5"
"0	1	5	96.92	1.0300	2	22.5"
"1	-1	5	96.92	1.0300	2	22.5"
"1	0	5	96.92	1.0300	2	22.5"
"1	-1	-5	96.92	1.0300	2	22.5"
"2	-1	-4	98.06	1.0210	2	29.5"
"1	-2	4	98.06	1.0210	2	29.5"
"2	-1	4	98.06	1.0210	2	29.5"
"1	-2	-4	98.06	1.0210	2	29.5"
"1	1	-4	98.06	1.0210	2	29.5"
"1	1	4	98.06	1.0210	2	29.5"
"3	-1	0	104.78	0.9731	2	6.7"
"3	-2	0	104.78	0.9731	2	6.7"
"1	-3	0	104.78	0.9731	2	6.7"
"2	-3	0	104.78	0.9731	2	6.7"
"2	1	0	104.78	0.9731	2	6.7"
"1	2	0	104.78	0.9731	2	6.7"
"3	-2	1	107.02	0.9589	2	19.8"
"2	-3	1	107.02	0.9589	2	19.8"
"3	-2	-1	107.02	0.9589	2	19.8"
"2	-3	-1	107.02	0.9589	2	19.8"
"3	-1	1	107.02	0.9589	2	19.8"
"3	-1	-1	107.02	0.9589	2	19.8"
"1	-3	-1	107.02	0.9589	2	19.8"
"1	-3	1	107.02	0.9589	2	19.8"
"2	1	-1	107.02	0.9589	2	19.8"
"1	2	-1	107.02	0.9589	2	19.8"
"2	1	1	107.02	0.9589	2	19.8"
"1	2	1	107.02	0.9589	2	19.8"
"0	2	-4	108.63	0.9491	2	6.5"
"2	0	-4	108.63	0.9491	2	6.5"
"2	-2	-4	108.63	0.9491	2	6.5"
"2	-2	4	108.63	0.9491	2	6.5"
"2	0	4	108.63	0.9491	2	6.5"
"0	2	4	108.63	0.9491	2	6.5"
"0	0	6	110.81	0.9365	2	25.8"
"2	-3	2	113.93	0.9195	2	6.4"
"1	-3	2	113.93	0.9195	2	6.4"
"3	-2	-2	113.93	0.9195	2	6.4"
"3	-1	-2	113.93	0.9195	2	6.4"
"3	-1	2	113.93	0.9195	2	6.4"
"1	-3	-2	113.93	0.9195	2	6.4"
"2	-3	-2	113.93	0.9195	2	6.4"
"3	-2	2	113.93	0.9195	2	6.4"
"1	2	-2	113.93	0.9195	2	6.4"
"2	1	-2	113.93	0.9195	2	6.4"
"1	2	2	113.93	0.9195	2	6.4"
"2	1	2	113.93	0.9195	2	6.4"
"1	-2	5	118.62	0.8964	2	0.0"
"2	-1	-5	118.62	0.8964	2	0.0"
"2	-1	5	118.62	0.8964	2	0.0"
"1	-2	-5	118.62	0.8964	2	0.0"

File: In_PowderTable_53777.txt
"H	K	L	2THETA	D-VALUE	MULT	INTENSITY"
"1	0	-1	33.14	2.7033	2	1000.0"
"0	1	-1	33.14	2.7033	2	1000.0"
"1	0	1	33.14	2.7033	2	1000.0"
"0	1	1	33.14	2.7033	2	1000.0"
"0	0	2	36.91	2.4350	2	732.4"
"1	-1	0	39.20	2.2981	2	612.0"
"1	1	0	39.20	2.2981	2	612.0"
"1	1	-2	54.94	1.6713	2	204.6"
"1	-1	2	54.94	1.6713	2	204.6"
"1	-1	-2	54.94	1.6713	2	204.6"
"1	1	2	54.94	1.6713	2	204.6"
"2	0	0	56.64	1.6250	2	184.0"
"0	2	0	56.64	1.6250	2	184.0"
"0	1	-3	64.12	1.4523	2	118.9"
"1	0	-3	64.12	1.4523	2	118.9"
"1	0	3	64.12	1.4523	2	118.9"
"0	1	3	64.12	1.4523	2	118.9"
"2	-1	1	67.22	1.3927	2	100.7"
"2	-1	-1	67.22	1.3927	2	100.7"
"1	-2	-1	67.22	1.3927	2	100.7"
"1	-2	1	67.22	1.3927	2	100.7"
"2	1	-1	67.22	1.3927	2	100.7"
"1	2	-1	67.22	1.3927	2	100.7"
"2	1	1	67.22	1.3927	2	100.7"
"1	2	1	67.22	1.3927	2	100.7"
"0	2	-2	69.55	1.3517	2	89.3"
"2	0	-2	69.55	1.3517	2	89.3"
"2	0	2	69.55	1.3517	2	89.3"
"0	2	2	69.55	1.3517	2	89.3"
"0	0	4	78.57	1.2175	2	59.2"
"2	-2	0	84.27	1.1490	2	47.8"
"2	2	0	84.27	1.1490	2	47.8"
"1	2	-3	90.78	1.0828	2	39.3"
"2	1	-3	90.78	1.0828	2	39.3"
"1	-2	3	90.78	1.0828	2	39.3"
"2	-1	-3	90.78	1.0828	2	39.3"
"2	-1	3	90.78	1.0828	2	39.3"
"1	2	3	90.78	1.0828	2	39.3"
"2	1	3	90.78	1.0828	2	39.3"
"1	-2	-3	90.78	1.0828	2	39.3"
"1	-1	4	91.54	1.0758	2	38.5"
"1	1	-4	91.54	1.0758	2	38.5"
"1	-1	-4	91.54	1.0758	2	38.5"
"1	1	4	91.54	1.0758	2	38.5"
"3	0	-1	93.60	1.0575	2	36.7"
"0	3	-1	93.60	1.0575	2	36.7"
"0	3	1	93.60	1.0575	2	36.7"
"3	0	1	93.60	1.0575	2	36.7"
"2	-2	-2	95.78	1.0392	2	35.0"
"2	-2	2	95.78	1.0392	2	35.0"
"2	2	-2	95.78	1.0392	2	35.0"
"2	2	2	95.78	1.0392	2	35.0"
"1	3	0	97.20	1.0277	2	34.0"
"1	-3	0	97.20	1.0277	2	34.0"
"3	1	0	97.20	1.0277	2	34.0"
"3	-1	0	97.20	1.0277	2	34.0"
"2	0	-4	104.59	0.9744	2	30.6"
"0	2	-4	104.59	0.9744	2	30.6"
"0	2	4	104.59	0.9744	2	30.6"
"2	0	4	104.59	0.9744	2	30.6"
"3	-1	-2	109.01	0.9469	2	29.6"
"3	1	-2	109.01	0.9469	2	29.6"
"1	-3	-2	109.01	0.9469	2	29.6"
"1	-3	2	109.01	0.9469	2	29.6"
"1	3	-2	109.01	0.9469	2	29.6"
"3	-1	2	109.01	0.9469	2	29.6"
"1	3	2	109.01	0.9469	2	29.6"
"3	1	2	109.01	0.9469	2	29.6"
"1	0	-5	111.43	0.9330	2	29.2"
"0	1	-5	111.43	0.9330	2	29.2"
"0	1	5	111.43	0.9330	2	29.2"
"1	0	5	111.43	0.9330	2	29.2"
"0	3	-3	117.63	0.9011	2	29.1"
"3	0	-3	117.63	0.9011	2	29.1"
"0	3	3	117.63	0.9011	2	29.1"
"3	0	3	117.63	0.9011	2	29.1"